{
  "resourceType": "Bundle",
  "id": "bundle1",
  "type": "transaction",
  "entry": [
    {
      "fullUrl": "urn:uuid:8df87da3-5c85-4bea-8996-33b364a0eea9",
      "resource": {
        "resourceType": "Practitioner",
        "id": "Practitioner2",
        "meta": {
          "profile": [
            "https://www.ehealth.fgov.be/standards/fhir/StructureDefinition/be-practitioner"
          ]
        },
        "text": {
          "status": "generated",
          "div": "<div xmlns=\"http://www.w3.org/1999/xhtml\"><p><b>Generated Narrative with Details</b></p><p><b>id</b>: Practitioner2</p><p><b>meta</b>: </p><p><b>name</b>: Dupont</p></div>"
        },
        "name": [
          {
            "text": "Dupont"
          }
        ]
      },
      "request": {
        "method": "POST",
        "url": "Practitioner"
      }
    },
    {
      "fullUrl": "urn:uuid:2a971dd8-b621-4a74-b984-ca2a7a619220",
      "resource": {
        "resourceType": "Organization",
        "id": "Organization2",
        "meta": {
          "profile": [
            "https://www.ehealth.fgov.be/standards/fhir/StructureDefinition/be-organization"
          ]
        },
        "text": {
          "status": "generated",
          "div": "<div xmlns=\"http://www.w3.org/1999/xhtml\"><p><b>Generated Narrative with Details</b></p><p><b>id</b>: Organization2</p><p><b>meta</b>: </p><p><b>name</b>: testorga</p></div>"
        },
        "name": "testorga"
      },
      "request": {
        "method": "POST",
        "url": "Organization"
      }
    },
    {
      "fullUrl": "urn:uuid:8cf2c41f-988e-40b8-8832-cad4f10803f5",
      "resource": {
        "resourceType": "Provenance",
        "id": "Provenance2",
        "meta": {
          "profile": [
            "https://www.ehealth.fgov.be/standards/fhir/StructureDefinition/be-provenance"
          ]
        },
        "text": {
          "status": "generated",
          "div": "<div xmlns=\"http://www.w3.org/1999/xhtml\"><p>This provenance relates to <a href=\"urn:uuid:8df87da3-5c85-4bea-8996-33b364a0eea9\">urn:uuid:8df87da3-5c85-4bea-8996-33b364a0eea9</a></p><p>Summary</p><table class=\"grid\"><tr><td>Recorded</td><td>27-Jun-2019 08:39:24</td></tr><tr><td>Activity</td><td><span title=\"Codes: {http://terminology.hl7.org/CodeSystem/v3-DataOperation CREATE}\">create</span></td></tr></table><p>Agents</p><table class=\"grid\"><tr><td><b>type</b></td><td><b>who</b></td></tr><tr><td><span title=\"Codes: {http://terminology.hl7.org/CodeSystem/provenance-participant-type author}\">Author</span></td><td><a href=\"urn:uuid:2a971dd8-b621-4a74-b984-ca2a7a619220\">Enterprise Hospital Ziekenhuis</a></td></tr></table></div>"
        },
        "target": [
          {
            "reference": "urn:uuid:8df87da3-5c85-4bea-8996-33b364a0eea9"
          }
        ],
        "recorded": "2019-06-27T08:39:24+02:00",
        "reason": [
          {
            "coding": [
              {
                "system": "http://terminology.hl7.org/CodeSystem/v3-ActReason",
                "code": "HOPERAT",
                "display": "Healthcare Operations"
              }
            ]
          }
        ],
        "activity": {
          "coding": [
            {
              "system": "http://terminology.hl7.org/CodeSystem/v3-DataOperation",
              "code": "CREATE"
            }
          ]
        },
        "agent": [
          {
            "type": {
              "coding": [
                {
                  "system": "http://terminology.hl7.org/CodeSystem/provenance-participant-type",
                  "code": "author"
                }
              ]
            },
            "who": {
              "reference": "urn:uuid:2a971dd8-b621-4a74-b984-ca2a7a619220",
              "display": "Enterprise Hospital Ziekenhuis"
            }
          }
        ]
      },
      "request": {
        "method": "POST",
        "url": "Provenance"
      }
    }
  ]
}