<?xml version="1.0" encoding="UTF-8"?>

<Bundle xmlns="http://hl7.org/fhir">
  <id value="bundle1"/>
  <type value="transaction"/>
  <entry>
    <fullUrl value="urn:uuid:8df87da3-5c85-4bea-8996-33b364a0eea9"/>
    <resource>
      <Practitioner>
        <id value="Practitioner2"/>
        <meta>
          <profile value="https://www.ehealth.fgov.be/standards/fhir/StructureDefinition/be-practitioner"/>
        </meta>
        <text>
          <status value="generated"/><div xmlns="http://www.w3.org/1999/xhtml"><p><b>Generated Narrative with Details</b></p><p><b>id</b>: Practitioner2</p><p><b>meta</b>: </p><p><b>name</b>: Dupont</p></div>
        </text>
        <name>
          <text value="Dupont"/>
        </name>
      </Practitioner>
    </resource>
    <request>
      <method value="POST"/>
      <url value="Practitioner"/>
    </request>
  </entry>
  <entry>
    <fullUrl value="urn:uuid:2a971dd8-b621-4a74-b984-ca2a7a619220"/>
    <resource>
      <Organization>
        <id value="Organization2"/>
        <meta>
          <profile value="https://www.ehealth.fgov.be/standards/fhir/StructureDefinition/be-organization"/>
        </meta>
        <text>
          <status value="generated"/><div xmlns="http://www.w3.org/1999/xhtml"><p><b>Generated Narrative with Details</b></p><p><b>id</b>: Organization2</p><p><b>meta</b>: </p><p><b>name</b>: testorga</p></div>
        </text>
        <name value="testorga"/>
      </Organization>
    </resource>
    <request>
      <method value="POST"/>
      <url value="Organization"/>
    </request>
  </entry>
  <entry>
    <fullUrl value="urn:uuid:8cf2c41f-988e-40b8-8832-cad4f10803f5"/>
    <resource>
      <Provenance>
        <id value="Provenance2"/>
        <meta>
          <profile value="https://www.ehealth.fgov.be/standards/fhir/StructureDefinition/be-provenance"/>
        </meta>
        <text>
          <status value="generated"/><div xmlns="http://www.w3.org/1999/xhtml"><p>This provenance relates to <a href="urn:uuid:8df87da3-5c85-4bea-8996-33b364a0eea9">urn:uuid:8df87da3-5c85-4bea-8996-33b364a0eea9</a></p><p>Summary</p><table class="grid"><tr><td>Recorded</td><td>27-Jun-2019 08:39:24</td></tr><tr><td>Activity</td><td><span title="Codes: {http://terminology.hl7.org/CodeSystem/v3-DataOperation CREATE}">create</span></td></tr></table><p>Agents</p><table class="grid"><tr><td><b>type</b></td><td><b>who</b></td></tr><tr><td><span title="Codes: {http://terminology.hl7.org/CodeSystem/provenance-participant-type author}">Author</span></td><td><a href="urn:uuid:2a971dd8-b621-4a74-b984-ca2a7a619220">Enterprise Hospital Ziekenhuis</a></td></tr></table></div>
        </text>
        <target>
          <reference value="urn:uuid:8df87da3-5c85-4bea-8996-33b364a0eea9"/>
        </target>
        <recorded value="2019-06-27T08:39:24+02:00"/>
        <reason>
          <coding>
            <system value="http://terminology.hl7.org/CodeSystem/v3-ActReason"/>
            <code value="HOPERAT"/>
            <display value="Healthcare Operations"/>
          </coding>
        </reason>
        <activity>
          <coding>
            <system value="http://terminology.hl7.org/CodeSystem/v3-DataOperation"/>
            <code value="CREATE"/>
          </coding>
        </activity>
        <agent>
          <type>
            <coding>
              <system value="http://terminology.hl7.org/CodeSystem/provenance-participant-type"/>
              <code value="author"/>
            </coding>
          </type>
          <who>
            <reference value="urn:uuid:2a971dd8-b621-4a74-b984-ca2a7a619220"/>
            <display value="Enterprise Hospital Ziekenhuis"/>
          </who>
        </agent>
      </Provenance>
    </resource>
    <request>
      <method value="POST"/>
      <url value="Provenance"/>
    </request>
  </entry>
</Bundle>