{
  "resourceType": "Bundle",
  "id": "bundle1",
  "type": "transaction",
  "entry": [
    {
      "fullUrl": "urn:uuid:8df87da3-5c85-4bea-8996-33b364a0eea9",
      "resource": {
        "resourceType": "Practitioner",
        "id": "Practitioner2",
        "meta": {
          "profile": [
            "https://www.ehealth.fgov.be/standards/fhir/StructureDefinition/be-practitioner"
          ]
        },
        "name": [
          {
            "text": "Dupont"
          }
        ]
      },
      "request": {
        "method": "POST",
        "url": "Practitioner"
      }
    },
    {
      "fullUrl": "urn:uuid:2a971dd8-b621-4a74-b984-ca2a7a619220",
      "resource": {
        "resourceType": "Organization",
        "id": "Organization2",
        "meta": {
          "profile": [
            "https://www.ehealth.fgov.be/standards/fhir/StructureDefinition/be-organization"
          ]
        },
        "name": "testorga"
      },
      "request": {
        "method": "POST",
        "url": "Organization"
      }
    },
    {
      "fullUrl": "urn:uuid:8cf2c41f-988e-40b8-8832-cad4f10803f5",
      "resource": {
        "resourceType": "Provenance",
        "id": "Provenance2",
        "meta": {
          "profile": [
            "https://www.ehealth.fgov.be/standards/fhir/StructureDefinition/be-provenance"
          ]
        },
        "target": [
          {
            "reference": "urn:uuid:8df87da3-5c85-4bea-8996-33b364a0eea9"
          }
        ],
        "recorded": "2019-06-27T08:39:24+02:00",
        "reason": [
          {
            "coding": [
              {
                "system": "http://terminology.hl7.org/CodeSystem/v3-ActReason",
                "code": "HOPERAT",
                "display": "Healthcare Operations"
              }
            ]
          }
        ],
        "activity": {
          "coding": [
            {
              "system": "http://terminology.hl7.org/CodeSystem/v3-DataOperation",
              "code": "CREATE"
            }
          ]
        },
        "agent": [
          {
            "type": {
              "coding": [
                {
                  "system": "http://terminology.hl7.org/CodeSystem/provenance-participant-type",
                  "code": "author"
                }
              ]
            },
            "who": {
              "reference": "urn:uuid:2a971dd8-b621-4a74-b984-ca2a7a619220",
              "display": "Enterprise Hospital Ziekenhuis"
            }
          }
        ]
      },
      "request": {
        "method": "POST",
        "url": "Provenance"
      }
    }
  ]
}
