{
  "resourceType": "Bundle",
  "id": "bemycareneteagreementdemand1",
  "meta": {
    "profile": [
      "https://www.ehealth.fgov.be/standards/fhir/StructureDefinition/be-mycareneteagreementdemand"
    ]
  },
  "type": "message",
  "entry": [
    {
      "resource": {
        "resourceType": "MessageHeader",
        "id": "MessageHeader2",
        "meta": {
          "profile": [
            "https://www.ehealth.fgov.be/standards/fhir/StructureDefinition/be-mycareneteagreementmessageheader"
          ]
        },
        "eventCoding": {
          "system": "https://www.ehealth.fgov.be/standards/fhir/CodeSystem/message-events",
          "code": "claim-ask"
        },
        "source": {
          "endpoint": "testuri"
        }
      },
      "fullUrl": "MessageHeader/2"
    },
    {
      "resource": {
        "resourceType": "Practitioner",
        "id": "Practitioner2",
        "meta": {
          "profile": [
            "https://www.ehealth.fgov.be/standards/fhir/StructureDefinition/be-practitioner"
          ]
        },
        "name": [
          {
            "text": "Dupont"
          }
        ]
      },
      "fullUrl": "test2"
    },
    {
      "resource": {
        "resourceType": "Claim",
        "id": "Claim2",
        "meta": {
          "profile": [
            "https://www.ehealth.fgov.be/standards/fhir/StructureDefinition/be-mycarenetclaim"
          ]
        },
        "subType": {
          "coding": [
            {
              "system": "https://www.ehealth.fgov.be/standards/fhir/CodeSystem/agreement-types",
              "code": "physiotherapy_fa"
            }
          ]
        },
        "identifier": [
          {
            "system": "https://www.ehealth.fgov.be/standards/fhir/id",
            "value": "1111"
          }
        ],
        "status": "active",
        "type": {
          "coding": [
            {
              "system": "http://terminology.hl7.org/CodeSystem/claim-type",
              "code": "institutional"
            }
          ]
        },
        "use": "claim",
        "patient": {
          "reference": "Patient/Patient2"
        },
        "created": "2020-04-07",
        "enterer": {
          "reference": "Practitioner/Practitioner2"
        },
        "provider": {
          "reference": "Practitioner/Practitioner2"
        },
        "priority": {
          "coding": [
            {
              "system": "http://terminology.hl7.org/CodeSystem/processpriority",
              "code": "normal"
            }
          ]
        },
        "insurance": [
          {
            "sequence": 1,
            "focal": true,
            "coverage": {
              "reference": "Coverage/Coverage2"
            }
          }
        ]
      },
      "fullUrl": "Claim/2"
    },
    {
      "resource": {
        "resourceType": "PractitionerRole",
        "id": "PractitionerRole2",
        "meta": {
          "profile": [
            "https://www.ehealth.fgov.be/standards/fhir/StructureDefinition/be-practitionerrole"
          ]
        },
        "practitioner": {
          "reference": "Practitioner/Practitioner2"
        }
      },
      "fullUrl": "test4"
    },
    {
      "resource": {
        "resourceType": "Coverage",
        "id": "Coverage2",
        "status": "active",
        "beneficiary": {
          "reference": "Patient/Patient2"
        },
        "payor": [
          {
            "reference": "Patient/Patient2"
          }
        ]
      },
      "fullUrl": "test5"
    },
    {
      "resource": {
        "resourceType": "Organization",
        "id": "Organization2",
        "meta": {
          "profile": [
            "https://www.ehealth.fgov.be/standards/fhir/StructureDefinition/be-organization"
          ]
        },
        "name": "testorga"
      },
      "fullUrl": "test6"
    },
    {
      "resource": {
        "resourceType": "Patient",
        "id": "Patient2",
        "meta": {
          "profile": [
            "https://www.ehealth.fgov.be/standards/fhir/StructureDefinition/be-patient"
          ]
        },
        "gender": "male"
      },
      "fullUrl": "test7"
    }
  ]
}
